# n + Ac225 : (n,xn)    
# jeff3.3    O.Iwamoto, T.Nakagawa, et al.     EVAL-FEB10
# 
# # energies =    82
#   E(MeV)        xs(mb) 
 3.00742E-02    0.00000E+00
 4.02697E-02    1.62731E+02
 5.00000E-02    3.66835E+02
 6.49900E-02    5.10385E+02
 7.00000E-02    6.25606E+02
 7.74657E-02    7.08755E+02
 1.00000E-01    9.21674E+02
 1.03689E-01    9.40281E+02
 1.05531E-01    9.49582E+02
 1.20000E-01    1.04399E+03
 1.21341E-01    1.05073E+03
 1.21342E-01    1.05074E+03
 1.27429E-01    1.10382E+03
 1.40000E-01    1.18230E+03
 1.45600E-01    1.21382E+03
 1.56348E-01    1.27366E+03
 1.70000E-01    1.38418E+03
 1.71556E-01    1.39453E+03
 1.99601E-01    1.58462E+03
 2.00000E-01    1.58732E+03
 2.00746E-01    1.58907E+03
 2.21991E-01    1.64962E+03
 2.36556E-01    1.71570E+03
 2.50000E-01    1.76162E+03
 3.00000E-01    1.93340E+03
 4.00000E-01    2.02181E+03
 5.00000E-01    2.26645E+03
 6.00000E-01    2.35277E+03
 7.00000E-01    2.49389E+03
 8.00000E-01    2.56530E+03
 9.00000E-01    2.64983E+03
 1.00000E+00    2.74727E+03
 1.10000E+00    2.82503E+03
 1.20000E+00    2.90081E+03
 1.30000E+00    2.97606E+03
 1.40000E+00    3.04459E+03
 1.50000E+00    3.11132E+03
 1.60000E+00    3.17026E+03
 1.70000E+00    3.22332E+03
 1.80000E+00    3.26970E+03
 1.90000E+00    3.30855E+03
 2.00000E+00    3.34302E+03
 2.10000E+00    3.36921E+03
 2.20000E+00    3.39227E+03
 2.40000E+00    3.42535E+03
 2.60000E+00    3.44412E+03
 2.80000E+00    3.44996E+03
 3.00000E+00    3.44950E+03
 3.50000E+00    3.42219E+03
 4.00000E+00    3.38869E+03
 4.50000E+00    3.32341E+03
 5.00000E+00    3.28359E+03
 5.50000E+00    3.21824E+03
 6.00000E+00    3.18684E+03
 6.50000E+00    3.14729E+03
 7.00000E+00    3.19006E+03
 7.50000E+00    3.63621E+03
 8.00000E+00    4.19338E+03
 8.50000E+00    4.62854E+03
 9.00000E+00    4.95053E+03
 9.50000E+00    5.15359E+03
 1.00000E+01    5.28785E+03
 1.05000E+01    5.36023E+03
 1.10000E+01    5.40619E+03
 1.15000E+01    5.43297E+03
 1.20000E+01    5.44573E+03
 1.25000E+01    5.45114E+03
 1.30000E+01    5.44979E+03
 1.35000E+01    5.49396E+03
 1.40000E+01    5.62267E+03
 1.45000E+01    5.80600E+03
 1.50000E+01    6.02746E+03
 1.55000E+01    6.20575E+03
 1.60000E+01    6.42338E+03
 1.65000E+01    6.56374E+03
 1.70000E+01    6.72134E+03
 1.75000E+01    6.81088E+03
 1.80000E+01    6.87883E+03
 1.85000E+01    6.90523E+03
 1.90000E+01    6.95208E+03
 1.95000E+01    6.99026E+03
 2.00000E+01    7.02149E+03
